Multiple; New; None; Unknown; ADaM-APCH1PC; ADaM-APCH1PN; ADaM-CHSFPC; ADaM-CHSFPN; ADaM-DATEFL; ADaM-DTYPE; ADaM-GAD02PC; ADaM-GAD02PN; ADaM-GDS02PC; ADaM-GDS02PN; ADaM- HAMD1PC; ADaM- HAMD1PN; ADaM-INPRM; ADaM-PARAMTYP; ADaM-PCL01PC; ADaM-PCL01PN; ADaM-POOLINT; ADaM-SBJTSTAT; ADaM-STRATA; ADaM-TBUTRS; ADaM-TIMEFL; ADaM-TPCATRS; ADaM-TPUSRS; CDASH-CMDOSFRM; CDASH-CMDOSFRQ; CDASH-CMDOSU; CDASH-CMROUTE; CDASH-DAORRESU; CDASH-EGORRESU; CDASH-EXDOSFRM; CDASH-EXDOSFRQ; CDASH-EXDOSU; CDASH-EXFLRTU; CDASH-EXINTPU; CDASH-EXPDOSEU; CDASH-EXROUTE; CDASH-EXVOLTU; CDASH-SADCRR; CDASH-SAERCAT; CDASH-SARCRR; CDASH-SUNCF; CDASH-VSPOS; CDISC-GLOSSARY; DefineXML-ANLPURP; DefineXML-ANLREAS; DefineXML-BDSSC; DefineXML-CTSTDTYP; DefineXML-DICTNAM; DefineXML-GNRLOBSC; DefineXML-MDBDSSC; DefineXML-OCCSC; DefineXML-ODMCNTX; DefineXML-ORIGINS; DefineXML-ORIGINT; DefineXML-STDNAM; DefineXML-STDSTAT; DefineXML-STDTYP; DDF-Abbreviation Attribute Terminology; DDF-Activity Attribute Terminology; DDF-Address Attribute Terminology; DDF-Administrable Product Attribute Terminology; DDF-Administrable Product Identifier Attribute Terminology; DDF-Administrable Product Property Attribute Terminology; DDF-Administrable Product Property Type Value Set Terminology; DDF-Administrable Product Sourcing Value Set Terminology; DDF-Administration Attribute Terminology; DDF-Alias Code Attribute Terminology; DDF-Analysis Population Attribute Terminology; DDF-Assigned Person Attribute Terminology; DDF-Biomedical Concept Attribute Terminology; DDF-Biomedical Concept Category Attribute Terminology; DDF-Biomedical Concept Property Attribute Terminology; DDF-Biomedical Concept Surrogate Attribute Terminology; DDF-Biospecimen Retention Attribute Terminology; DDF-Characteristic Attribute Terminology; DDF-Clinical Study Attribute Terminology; DDF-Code Attribute Terminology; DDF-Comment Annotation Attribute Terminology; DDF-Condition Assignment Attribute Terminology; DDF-Condition Attribute Terminology; DDF-Document Content Reference Attribute Terminology; DDF-Duration Terminology; DDF-Eligibility Criterion Item Attribute Terminology; DDF-Encounter Attribute Terminology; DDF-Encounter Type Value Set Terminology; DDF-Endpoint Attribute Terminology; DDF-Endpoint Level Value Set Terminology; DDF-Entity Terminology; DDF-Estimand Attribute Terminology; DDF-Geographic Scope Attribute Terminology; DDF-Geographic Scope Type Value Set Terminology; DDF-Governance Date Attribute Terminology; DDF-Governance Date Type Value Set Terminology; DDF-Identifier Attribute Terminology; DDF-Indication Attribute Terminology; DDF-Ingredient Attribute Terminology; DDF-Intercurrent Event Attribute Terminology; DDF-Interventional Study Design Attribute Terminology; DDF-Masking Attribute Terminology; DDF-Medical Device Attribute Terminology; DDF-Medical Device Identifier Attribute Terminology; DDF-Medical Device Identifier Type Value Set Terminology; DDF-Medical Device Sourcing Value Set Terminology; DDF-Narrative Content Attribute Terminology; DDF-Narrative Content Item Attribute Terminology; DDF-Objective Attribute Terminology; DDF-Objective Level Value Set Terminology; DDF-Observational Study Design Attribute Terminology; DDF-Observational Study Design Subtype Value Set Terminology; DDF-Organization Attribute Terminology; DDF-Organization Type Value Set Terminology; DDF-Parameter Map Attribute Terminology; DDF-Person Name Terminology; DDF-Population Definition Attribute Terminology; DDF-Procedure Attribute Terminology; DDF-Product Organization Role Attribute Terminology; DDF-Product Organization Role Code Value Set Terminology; DDF-Person Name Terminology; DDF-Protocol Status Value Set Terminology; DDF-Quantity Attribute Terminology; DDF-Range Attribute Terminology; DDF-Reference Identifier Attribute Terminology; DDF-Reference Identifier Type Value Set Terminology; DDF-Response Code Attribute Terminology; DDF-Schedule Timeline Attribute Terminology; DDF-Scheduled Activity Instance Attribute Terminology; DDF-Scheduled Decision Instance Attribute Terminology; DDF-Scheduled Instance Attribute Terminology; DDF-Strength Attribute Terminology; DDF-Study Amendment Attribute Terminology; DDF-Study Amendment Impact Attribute Terminology; DDF-Study Amendment Impact Type Value Set Terminology; DDF-Study Amendment Reason Attribute Terminology; DDF-Study Amendment Reason Code Value Set Terminology; DDF-Study Arm Attribute Terminology; DDF-Study Arm Data Origin Type Value Set Terminology; DDF-Study Change Attribute Terminology; DDF-Study Cohort Attribute Terminology; DDF-Study Definition Document Attribute Terminology; DDF-Study Definition Document Type Value Set Terminology; DDF-Study Definition Document Version Attribute Terminology; DDF-Study Design Attribute Terminology; DDF-Study Design Characteristics Value Set Terminology; DDF-Study Design Population Attribute Terminology; DDF-Study Role Attribute Terminology; DDF-Study Role Code Value Set Terminology; DDF-Substance Attribute Terminology; DDF-Study Element Attribute Terminology; DDF-Study Epoch Attribute Terminology; DDF-Study Identifier Attribute Terminology; DDF-Study Intervention Attribute Terminology; DDF-Product Designation Value Set Terminology; DDF-Study Intervention Role Value Set Terminology; DDF-Study Site Attribute Terminology; DDF-Study Title Attribute Terminology; DDF-Study Title Type Value Set Terminology; DDF-Study Version Attribute Terminology; DDF-Subject Enrollment Attribute Terminology; DDF-Syntax Template Attribute Terminology; DDF-Syntax Template Dictionary Attribute Terminology; DDF-Timing Attribute Terminology; DDF-Timing Relative To From Value Set Terminology; DDF-Timing Type Value Set Terminology; DDF-Transition Rule Attribute Terminology; ICH M11-Amendment Details Statement Response Terminology; ICH M11-Amendment Scope Enrollment Description Response Terminology; ICH M11-Amendment Scope Response Terminology; ICH M11-Control Type Response Terminology; ICH M11-ICH M11 Section 1 Terminology; ICH M11-ICH M11 Section 10 Terminology; ICH M11-ICH M11 Section 11 Terminology; ICH M11-ICH M11 Section 12 Terminology; ICH M11-ICH M11 Section 13 Terminology; ICH M11-ICH M11 Section 14 Terminology; ICH M11-ICH M11 Section 2 Terminology; ICH M11-ICH M11 Section 3 Terminology; ICH M11-ICH M11 Section 4 Terminology; ICH M11-ICH M11 Section 5 Terminology; ICH M11-ICH M11 Section 6 Terminology; ICH M11-ICH M11 Section 7 Terminology; ICH M11-ICH M11 Section 8 Terminology; ICH M11-ICH M11 Section 9 Terminology; ICH M11-ICH M11 Section Amendment Details Terminology; ICH M11-ICH M11 Section Title Page Terminology; ICH M11-Independent Committee Name Response Terminology; ICH M11-Intervention Model Response Terminology; ICH M11-Intervention Type Response Terminology; ICH M11-Intervention Use Response Terminology; ICH M11-Investigational Intervention Sourcing Response Terminology; ICH M11-Investigational Medicinal Product Indicator Response Terminology; ICH M11-No Yes Response Terminology; ICH M11-Population Type Response Terminology; ICH M11-Protocol Section Name and Number Response Terminology; ICH M11-Reason for Amendment Response Terminology; ICH M11-Trial Arm Type Response Terminology; ICH M11-Trial Blinding Role Response Terminology; ICH M11-Trial Blinding Schema Response Terminology; ICH M11-Trial Intervention Assignment Method Response Terminology; ICH M11-Trial Phase Response Terminology; ICH M11-Trial Site Distribution Response Terminology; ICH M11-Trial Site Geographic Scope Response Terminology; ICH M11-Trial-Related Safety Event Type Response Terminology; ICH M11-Unit of Measure Terminology; MRCT Ctr-CDISC; SDTM-A4STR1TC; SDTM-A4STR1TN; SDTM-ACCPARTY; SDTM-ACGC01TC; SDTM-ACGC01TN; SDTM-ACN; SDTM-ACSPCAT; SDTM-ADC1TC; SDTM-ADC1TN; SDTM-ADCTC; SDTM-ADCTN; SDTM-ADL01TC; SDTM-ADL01TN; SDTM-ADL02TC; SDTM-ADL02TN; SDTM-ADL03TC; SDTM-ADL03TN; SDTM-ADSD01TC; SDTM-ADSD01TN; SDTM-ADT01TC; SDTM-ADT01TN; SDTM-ADTC01TC; SDTM-ADTC01TN; SDTM-ADTC0201OR; SDTM-ADTC0201STR; SDTM-ADTC0202OR; SDTM-ADTC0202STR; SDTM-ADTC0203OR; SDTM-ADTC0203STR; SDTM-ADTC02TC; SDTM-ADTC02TN; SDTM-ADTC0301OR; SDTM-ADTC0301STR; SDTM-ADTC0302OR; SDTM-ADTC0302STR; SDTM-ADTC0303OR; SDTM-ADTC0303STR; SDTM-ADTC03TC; SDTM-ADTC03TN; SDTM-ADTNQRS; SDTM-AESEV; SDTM-AGEU; SDTM-AIMS0101T07OR; SDTM-AIMS0101T07STR; SDTM-AIMS0108T09OR; SDTM-AIMS0108T09STR; SDTM-AIMS0110OR; SDTM-AIMS0110STR; SDTM-AIMS0111T12OR; SDTM-AIMS0111T12STR; SDTM-AIMS01TC; SDTM-AIMS01TN; SDTM-AJCC1TC; SDTM-AJCC1TN; SDTM-AJCCGRD; SDTM-ANSD01TC; SDTM-ANSD01TN; SDTM-APCH101OR; SDTM-APCH101STR; SDTM-APCH102OR; SDTM-APCH102STR; SDTM-APCH103OR; SDTM-APCH103STR; SDTM-APCH104OR; SDTM-APCH104STR; SDTM-APCH105AOR; SDTM-APCH105ASTR; SDTM-APCH105BOR; SDTM-APCH105BSTR; SDTM-APCH106AOR; SDTM-APCH106ASTR; SDTM-APCH106BOR; SDTM-APCH106BSTR; SDTM-APCH107OR; SDTM-APCH107STR; SDTM-APCH108OR; SDTM-APCH108STR; SDTM-APCH109OR; SDTM-APCH109STR; SDTM-APCH110OR; SDTM-APCH110STR; SDTM-APCH111OR; SDTM-APCH111STR; SDTM-APCH114OR; SDTM-APCH114STR; SDTM-APCH115OR; SDTM-APCH115STR; SDTM-APCH1TC; SDTM-APCH1TN; SDTM-APGR01TC; SDTM-APGR01TN; SDTM-AQ01TC; SDTM-AQ01TN; SDTM-ARCI01OR; SDTM-ARCI01STR; SDTM-ARCI01TC; SDTM-ARCI01TN; SDTM-ARMNULRS; SDTM-ASCVD1TC; SDTM-ASCVD1TN; SDTM-ASEX01TC; SDTM-ASEX01TN; SDTM-ASEX02TC; SDTM-ASEX02TN; SDTM-ASFATS; SDTM-ASFATSCD; SDTM-ASSG01TC; SDTM-ASSG01TN; SDTM-ATLAS101OR; SDTM-ATLAS101STR; SDTM-ATLAS102OR; SDTM-ATLAS102STR; SDTM-ATLAS103OR; SDTM-ATLAS103STR; SDTM-ATLAS104OR; SDTM-ATLAS104STR; SDTM-ATLAS105OR; SDTM-ATLAS105STR; SDTM-ATLAS1TC; SDTM-ATLAS1TN; SDTM-AUTEST; SDTM-AUTESTCD; SDTM-AVL01TC; SDTM-AVL01TN; SDTM-AVL02TC; SDTM-AVL02TN; SDTM-AVOUTTRT; SDTM-AVPU01TC; SDTM-AVPU01TN; SDTM-BACS1TC; SDTM-BACS1TN; SDTM-BARS01TC; SDTM-BARS01TN; SDTM-BCR101TC; SDTM-BCR101TN; SDTM-BDI01TC; SDTM-BDI01TN; SDTM-BEBQ01TC; SDTM-BEBQ01TN; SDTM-BEBQ02TC; SDTM-BEBQ02TN; SDTM-BEDECOD; SDTM-BLCS01TC; SDTM-BLCS01TN; SDTM-BODE01TC; SDTM-BODE01TN; SDTM-BPI1TC; SDTM-BPI1TN; SDTM-BPI2TC; SDTM-BPI2TN; SDTM-BPRS01TC; SDTM-BPRS01TN; SDTM-BPRSA118OR; SDTM-BPRSA118STR; SDTM-BPRSA1SET1OR; SDTM-BPRSA1SET1STR; SDTM-BPRSA1SET2OR; SDTM-BPRSA1SET2STR; SDTM-BPRSA1TC; SDTM-BPRSA1TN; SDTM-BRDGMOOD; SDTM-BSTEST; SDTM-BSTESTCD; SDTM-BUERS1TC; SDTM-BUERS1TN; SDTM-BWCS01TC; SDTM-BWCS01TN; SDTM-C19FAT; SDTM-C19FATCD; SDTM-CADG01TC; SDTM-CADG01TN; SDTM-CADGRS; SDTM-CADPRSN; SDTM-CADRISK; SDTM-CADSYMP; SDTM-CAP01TC; SDTM-CAP01TN; SDTM-CARTDOM; SDTM-CASEFIND; SDTM-CBS01TC; SDTM-CBS01TN; SDTM-CCCAT; SDTM-CCINVTYP; SDTM-CCQ01TC; SDTM-CCQ01TN; SDTM-CCQ02TC; SDTM-CCQ02TN; SDTM-CCSGA101OR; SDTM-CCSGA101STR; SDTM-CCSGA1TC; SDTM-CCSGA1TN; SDTM-CDAI01TC; SDTM-CDAI01TN; SDTM-CDFATS; SDTM-CDFATSCD; SDTM-CDR01TC; SDTM-CDR01TN; SDTM-CDRS1TC; SDTM-CDRS1TN; SDTM-CELSTATE; SDTM-CES0101OR; SDTM-CES0101STR; SDTM-CES0102OR; SDTM-CES0102STR; SDTM-CES0103OR; SDTM-CES0103STR; SDTM-CES0104OR; SDTM-CES0104STR; SDTM-CES0105T07OR; SDTM-CES0105T07STR; SDTM-CES01TC; SDTM-CES01TN; SDTM-CGI02TC; SDTM-CGI02TN; SDTM-CHIVC1TC; SDTM-CHIVC1TN; SDTM-CHSF1TC; SDTM-CHSF1TN; SDTM-CHSF2TC; SDTM-CHSF2TN; SDTM-CLINSTRS; SDTM-CLMETH; SDTM-CLTMDTYP; SDTM-CMSPSTAT; SDTM-CNTMODE; SDTM-COLSTYP; SDTM-COMM1TC; SDTM-COMM1TN; SDTM-CONROL; SDTM-COVI01TC; SDTM-COVI01TN; SDTM-COWAT1TC; SDTM-COWAT1TN; SDTM-COWS1TC; SDTM-COWS1TN; SDTM-CPCAT; SDTM-CPFATS; SDTM-CPFATSCD; SDTM-CPS0101OR; SDTM-CPS0101STR; SDTM-CPS0102OR; SDTM-CPS0102STR; SDTM-CPS0103OR; SDTM-CPS0103STR; SDTM-CPS0104OR; SDTM-CPS0104STR; SDTM-CPS0105AOR; SDTM-CPS0105ASTR; SDTM-CPS0105BOR; SDTM-CPS0105BSTR; SDTM-CPS0107OR; SDTM-CPS0107STR; SDTM-CPS01TC; SDTM-CPS01TN; SDTM-CPTEST; SDTM-CPTESTCD; SDTM-CRFATS; SDTM-CRFATSCD; SDTM-CRQ01TC; SDTM-CRQ01TN; SDTM-CRQ02TC; SDTM-CRQ02TN; SDTM-CRSR01TC; SDTM-CRSR01TN; SDTM-CRYDFMAN; SDTM-CSLVLNIM; SDTM-CSS01TC; SDTM-CSS01TN; SDTM-CSS02TC; SDTM-CSS02TN; SDTM-CSS03TC; SDTM-CSS03TN; SDTM-CSS04TC; SDTM-CSS04TN; SDTM-CSS05TC; SDTM-CSS05TN; SDTM-CSS06TC; SDTM-CSS06TN; SDTM-CSS07TC; SDTM-CSS07TN; SDTM-CSS08TC; SDTM-CSS08TN; SDTM-CSS09TC; SDTM-CSS09TN; SDTM-CSS10TC; SDTM-CSS10TN; SDTM-CSS11TC; SDTM-CSS11TN; SDTM-CSTATE; SDTM-CTAUGRS; SDTM-CTTIMIRS; SDTM-CVFARS; SDTM-CVFATS; SDTM-CVFATSCD; SDTM-CVPRCIND; SDTM-CVSLDEXT; SDTM-CVTEST; SDTM-CVTESTCD; SDTM-D1FATS; SDTM-D1FATSCD; SDTM-D4STR1TC; SDTM-D4STR1TN; SDTM-DAD01TC; SDTM-DAD01TN; SDTM-DATEST; SDTM-DATESTCD; SDTM-DDS01TC; SDTM-DDS01TN; SDTM-DDS02TC; SDTM-DDS02TN; SDTM-DDS03TC; SDTM-DDS03TN; SDTM-DEACNDEV; SDTM-DECAT; SDTM-DIABTHPY; SDTM-DIBC01TC; SDTM-DIBC01TN; SDTM-DICTNAM; SDTM-DIPARM; SDTM-DIPARMCD; SDTM-DIR; SDTM-DISCHDX; SDTM-DKFATS; SDTM-DKFATSCD; SDTM-DLQI1TC; SDTM-DLQI1TN; SDTM-DMFATS; SDTM-DMFATSCD; SDTM-DOMAIN; SDTM-DOTEST; SDTM-DOTESTCD; SDTM-DPETSCRS; SDTM-DRRI1TC; SDTM-DRRI1TN; SDTM-DRS01TC; SDTM-DRS01TN; SDTM-DRSTAT; SDTM-DS01TC; SDTM-DS01TN; SDTM-DSCAT; SDTM-DSPRTYP; SDTM-DSQ1TC; SDTM-DSQ1TN; SDTM-DSSCAT; SDTM-DSSOUT; SDTM-DTDECOD; SDTM-DTHDX; SDTM-DTHDXCD; SDTM-DURS; SDTM-DUTEST; SDTM-DUTESTCD; SDTM-DVCAT; SDTM-DVDECOD; SDTM-EATEST; SDTM-EATESTCD; SDTM-EBFATS; SDTM-EBFATSCD; SDTM-ECOG101OR; SDTM-ECOG101STR; SDTM-ECOG1TC; SDTM-ECOG1TN; SDTM-ED1TC; SDTM-ED1TN; SDTM-ED2TC; SDTM-ED2TN; SDTM-EDSS01TC; SDTM-EDSS01TN; SDTM-EGANMET; SDTM-EGLEAD; SDTM-EGMETHOD; SDTM-EGRDMETH; SDTM-EGSTRESC; SDTM-EGTEST; SDTM-EGTESTCD; SDTM-EMO1TC; SDTM-EMO1TN; SDTM-EMPSTAT; SDTM-EOR01TC; SDTM-EOR01TN; SDTM-EOR02TC; SDTM-EOR02TN; SDTM-EOR03TC; SDTM-EOR03TN; SDTM-EOR06TC; SDTM-EOR06TN; SDTM-EOR12TC; SDTM-EOR12TN; SDTM-EOR17TC; SDTM-EOR17TN; SDTM-EOR18TC; SDTM-EOR18TN; SDTM-EOR19TC; SDTM-EOR19TN; SDTM-EOR20TC; SDTM-EOR20TN; SDTM-EOR21TC; SDTM-EOR21TN; SDTM-EOR24TC; SDTM-EOR24TN; SDTM-EOR28TC; SDTM-EOR28TN; SDTM-EOR29TC; SDTM-EOR29TN; SDTM-EOR30TC; SDTM-EOR30TN; SDTM-EOR35TC; SDTM-EOR35TN; SDTM-EOR36TC; SDTM-EOR36TN; SDTM-EPDS01TC; SDTM-EPDS01TN; SDTM-EPIC1TC; SDTM-EPIC1TN; SDTM-EPIC2TC; SDTM-EPIC2TN; SDTM-EPOCH; SDTM-EQ5D01TC; SDTM-EQ5D01TN; SDTM-EQ5D02TC; SDTM-EQ5D02TN; SDTM-ESPARM; SDTM-ESPARMCD; SDTM-ESRSA1TC; SDTM-ESRSA1TN; SDTM-ESS01TC; SDTM-ESS01TN; SDTM-ETHNICC; SDTM-ETRP01TC; SDTM-ETRP01TN; SDTM-EVAL; SDTM-EVDRETRT; SDTM-EXACT1TC; SDTM-EXACT1TN; SDTM-FAC001TC; SDTM-FAC001TN; SDTM-FAC005TC; SDTM-FAC005TN; SDTM-FAC006TC; SDTM-FAC006TN; SDTM-FAC008TC; SDTM-FAC008TN; SDTM-FAC015TC; SDTM-FAC015TN; SDTM-FAC016TC; SDTM-FAC016TN; SDTM-FAC017TC; SDTM-FAC017TN; SDTM-FAC018TC; SDTM-FAC018TN; SDTM-FAC019TC; SDTM-FAC019TN; SDTM-FAC023TC; SDTM-FAC023TN; SDTM-FAC028TC; SDTM-FAC028TN; SDTM-FAC029TC; SDTM-FAC029TN; SDTM-FAC030TC; SDTM-FAC030TN; SDTM-FAC032TC; SDTM-FAC032TN; SDTM-FAC036TC; SDTM-FAC036TN; SDTM-FAC039TC; SDTM-FAC039TN; SDTM-FAC041TC; SDTM-FAC041TN; SDTM-FAC042TC; SDTM-FAC042TN; SDTM-FAC043TC; SDTM-FAC043TN; SDTM-FAC049TC; SDTM-FAC049TN; SDTM-FAC050TC; SDTM-FAC050TN; SDTM-FAC052TC; SDTM-FAC052TN; SDTM-FAC057TC; SDTM-FAC057TN; SDTM-FAC061TC; SDTM-FAC061TN; SDTM-FAC062TC; SDTM-FAC062TN; SDTM-FAC063TC; SDTM-FAC063TN; SDTM-FAC065TC; SDTM-FAC065TN; SDTM-FAC070TC; SDTM-FAC070TN; SDTM-FAC071TC; SDTM-FAC071TN; SDTM-FAC074TC; SDTM-FAC074TN; SDTM-FAC075TC; SDTM-FAC075TN; SDTM-FAC084TC; SDTM-FAC084TN; SDTM-FAC099TC; SDTM-FAC099TN; SDTM-FAC100TC; SDTM-FAC100TN; SDTM-FAC101TC; SDTM-FAC101TN; SDTM-FAC102TC; SDTM-FAC102TN; SDTM-FACT104TC; SDTM-FACT104TN; SDTM-FAMS01TC; SDTM-FAMS01TN; SDTM-FAQ01TC; SDTM-FAQ01TN; SDTM-FAQNA1TC; SDTM-FAQNA1TN; SDTM-FASNA1TC; SDTM-FASNA1TN; SDTM-FATEST; SDTM-FATESTCD; SDTM-FCVD1TC; SDTM-FCVD1TN; SDTM-FDATSRS; SDTM-FES01TC; SDTM-FES01TN; SDTM-FIQR01TC; SDTM-FIQR01TN; SDTM-FPSR1TC; SDTM-FPSR1TN; SDTM-FREQ; SDTM-FRM; SDTM-FSILTC; SDTM-FSILTN; SDTM-FSLPTC; SDTM-FSLPTN; SDTM-FSS01TC; SDTM-FSS01TN; SDTM-FTCAT; SDTM-FTCD01TC; SDTM-FTCD01TN; SDTM-GAD01TC; SDTM-GAD01TN; SDTM-GAD02TC; SDTM-GAD02TN; SDTM-GASTRO; SDTM-GASTROCD; SDTM-GCGI01TC; SDTM-GCGI01TN; SDTM-GCS01TC; SDTM-GCS01TN; SDTM-GDS01TC; SDTM-GDS01TN; SDTM-GDS02TC; SDTM-GDS02TN; SDTM-GENIDENT; SDTM-GENSMP; SDTM-GFANMET; SDTM-GFTEST; SDTM-GFTESTCD; SDTM-GFTSDTL; SDTM-GMSS01TC; SDTM-GMSS01TN; SDTM-GOSE1TC; SDTM-GOSE1TN; SDTM-GRAFTTYP; SDTM-GRSTNLOC; SDTM-HADS01TC; SDTM-HADS01TN; SDTM-HAI01TC; SDTM-HAI01TN; SDTM-HAMA101T14OR; SDTM-HAMA101T14STR; SDTM-HAMA1TC; SDTM-HAMA1TN; SDTM-HAMD1TC; SDTM-HAMD1TN; SDTM-HAMD2TC; SDTM-HAMD2TN; SDTM-HAMD3TC; SDTM-HAMD3TN; SDTM-HAMD4TC; SDTM-HAMD4TN; SDTM-HAMDS1TC; SDTM-HAMDS1TN; SDTM-HAQ01TC; SDTM-HAQ01TN; SDTM-HAQ02TC; SDTM-HAQ02TN; SDTM-HBI0101OR; SDTM-HBI0101STR; SDTM-HBI0102OR; SDTM-HBI0102STR; SDTM-HBI0104OR; SDTM-HBI0104STR; SDTM-HBI0105AT05HOR; SDTM-HBI0105AT05HSTR; SDTM-HBI01TC; SDTM-HBI01TN; SDTM-HCS01TC; SDTM-HCS01TN; SDTM-HDCAB1TC; SDTM-HDCAB1TN; SDTM-HEGRDMTH; SDTM-HEPENCGR; SDTM-HESTRESC; SDTM-HETEST; SDTM-HETESTCD; SDTM-HODECOD; SDTM-HSB01TC; SDTM-HSB01TN; SDTM-IBDQ01TC; SDTM-IBDQ01TN; SDTM-IDSC1TC; SDTM-IDSC1TN; SDTM-IDSR1TC; SDTM-IDSR1TN; SDTM-IECAT; SDTM-IGDCMPLX; SDTM-IIEF01TC; SDTM-IIEF01TN; SDTM-INHERTGF; SDTM-INTEGU; SDTM-INTEGUCD; SDTM-INTMODEL; SDTM-INTTYPE; SDTM-IPAQ01TC; SDTM-IPAQ01TN; SDTM-IPAQ02TC; SDTM-IPAQ02TN; SDTM-IPAQ03TC; SDTM-IPAQ03TN; SDTM-IPAQ04TC; SDTM-IPAQ04TN; SDTM-IPS0101T06OR; SDTM-IPS0101T06STR; SDTM-IPS0107OR; SDTM-IPS0107STR; SDTM-IPS0109OR; SDTM-IPS0109STR; SDTM-IPS01TC; SDTM-IPS01TN; SDTM-IQCAT; SDTM-ISBDAGT; SDTM-ISFTSDTL; SDTM-ISTEST; SDTM-ISTESTCD; SDTM-ISXDXRS; SDTM-IVIS01TC; SDTM-IVIS01TN; SDTM-KDIGO1TC; SDTM-KDIGO1TN; SDTM-KDPI01TC; SDTM-KDPI01TN; SDTM-KDQ1TC; SDTM-KDQ1TN; SDTM-KFSS101OR; SDTM-KFSS101STR; SDTM-KFSS102OR; SDTM-KFSS102STR; SDTM-KFSS103OR; SDTM-KFSS103STR; SDTM-KFSS104OR; SDTM-KFSS104STR; SDTM-KFSS105OR; SDTM-KFSS105STR; SDTM-KFSS106OR; SDTM-KFSS106STR; SDTM-KFSS107OR; SDTM-KFSS107STR; SDTM-KFSS108OR; SDTM-KFSS108STR; SDTM-KFSS1SET1OR; SDTM-KFSS1SET1STR; SDTM-KFSS1TC; SDTM-KFSS1TN; SDTM-KILLIPC; SDTM-KPSS0101OR; SDTM-KPSS0101STR; SDTM-KPSS01TC; SDTM-KPSS01TN; SDTM-LAT; SDTM-LBANMET; SDTM-LBTEST; SDTM-LBTESTCD; SDTM-LEADABN; SDTM-LEADSTAT; SDTM-LEC01TC; SDTM-LEC01TN; SDTM-LOC; SDTM-LPPSS1TC; SDTM-LPPSS1TN; SDTM-LSNCMPX; SDTM-LUFATS; SDTM-LUFATSCD; SDTM-LVEFMRE; SDTM-MARISTAT; SDTM-MBFTSDTL; SDTM-MBTEST; SDTM-MBTESTCD; SDTM-MCEQ01TC; SDTM-MCEQ01TN; SDTM-MCHR01TC; SDTM-MCHR01TN; SDTM-MCIDCERT; SDTM-MCRCSPTM; SDTM-MEDEVAL; SDTM-MELD01TC; SDTM-MELD01TN; SDTM-MELD02TC; SDTM-MELD02TN; SDTM-METHOD; SDTM-MFIS01TC; SDTM-MFIS01TN; SDTM-MHEDTTYP; SDTM-MHIS01TC; SDTM-MHIS01TN; SDTM-MICROORG; SDTM-MIFTSDTL; SDTM-MITS; SDTM-MITSCD; SDTM-MMRC01TC; SDTM-MMRC01TN; SDTM-MMS1TC; SDTM-MMS1TN; SDTM-MMS2TC; SDTM-MMS2TN; SDTM-MNSI1TC; SDTM-MNSI1TN; SDTM-MODDLV; SDTM-MODTRN; SDTM-MPAI1TC; SDTM-MPAI1TN; SDTM-MPSTATRS; SDTM-MRFATS; SDTM-MRFATSCD; SDTM-MRS01TC; SDTM-MRS01TN; SDTM-MSFATS; SDTM-MSFATSCD; SDTM-MSQL1TC; SDTM-MSQL1TN; SDTM-MSSTRESC; SDTM-MSTEST; SDTM-MSTESTCD; SDTM-MTWSR101T15OR; SDTM-MTWSR101T15STR; SDTM-MTWSR1TC; SDTM-MTWSR1TN; SDTM-MUSCTS; SDTM-MUSCTSCD; SDTM-MVAI101OR; SDTM-MVAI101STR; SDTM-MVAI102OR; SDTM-MVAI102STR; SDTM-MVAI103OR; SDTM-MVAI103STR; SDTM-MVAI104OR; SDTM-MVAI104STR; SDTM-MVAI105OR; SDTM-MVAI105STR; SDTM-MVAI1TC; SDTM-MVAI1TN; SDTM-NCF; SDTM-NCOMPLT; SDTM-ND; SDTM-NEWS1TC; SDTM-NEWS1TN; SDTM-NHPT01TC; SDTM-NHPT01TN; SDTM-NORMABNM; SDTM-NOTGRDRS; SDTM-NPI1TC; SDTM-NPI1TN; SDTM-NPS01TC; SDTM-NPS01TN; SDTM-NRIND; SDTM-NSA01TC; SDTM-NSA01TN; SDTM-NSAA1TC; SDTM-NSAA1TN; SDTM-NSCLC1TC; SDTM-NSCLC1TN; SDTM-NSYSPCID; SDTM-NTFATS; SDTM-NTFATSCD; SDTM-NVTEST; SDTM-NVTESTCD; SDTM-NY; SDTM-NY1TC; SDTM-NY1TN; SDTM-NYHAC; SDTM-OABQ01TC; SDTM-OABQ01TN; SDTM-OABQ02TC; SDTM-OABQ02TN; SDTM-OBSSMO; SDTM-OBSSSM; SDTM-OBSSTP; SDTM-ODI01TC; SDTM-ODI01TN; SDTM-OEFOCUS; SDTM-OETEST; SDTM-OETESTCD; SDTM-OGI01TC; SDTM-OGI01TN; SDTM-OIPRM; SDTM-OIPRMCD; SDTM-ONCRSCAT; SDTM-ONCRSR; SDTM-ONCRTS; SDTM-ONCRTSCD; SDTM-OTHEVENT; SDTM-OUT; SDTM-PA016TC; SDTM-PA016TN; SDTM-PA020TC; SDTM-PA020TN; SDTM-PA136TC; SDTM-PA136TN; SDTM-PA215TC; SDTM-PA215TN; SDTM-PA261TC; SDTM-PA261TN; SDTM-PAFATS; SDTM-PAFATSCD; SDTM-PANSS1TC; SDTM-PANSS1TN; SDTM-PASAT1TC; SDTM-PASAT1TN; SDTM-PASI02TC; SDTM-PASI02TN; SDTM-PASI03TC; SDTM-PASI03TN; SDTM-PASI04TC; SDTM-PASI04TN; SDTM-PASI05TC; SDTM-PASI05TN; SDTM-PCL01TC; SDTM-PCL01TN; SDTM-PDAI01TC; SDTM-PDAI01TN; SDTM-PDDS01TC; SDTM-PDDS01TN; SDTM-PDFATS; SDTM-PDFATSCD; SDTM-PDPARM; SDTM-PDPARMCD; SDTM-PGI01TC; SDTM-PGI01TN; SDTM-PHQ0101T09OR; SDTM-PHQ0101T09STR; SDTM-PHQ0110OR; SDTM-PHQ0110STR; SDTM-PHQ01TC; SDTM-PHQ01TN; SDTM-PHQ02TC; SDTM-PHQ02TN; SDTM-PHQ03TC; SDTM-PHQ03TN; SDTM-PHQ04TC; SDTM-PHQ04TN; SDTM-PHQ05TC; SDTM-PHQ05TN; SDTM-PHSPRP; SDTM-PHSPRPCD; SDTM-PI01TC; SDTM-PI01TN; SDTM-PKANMET; SDTM-PKPARM; SDTM-PKPARMCD; SDTM-PKUDMG; SDTM-PKUDUG; SDTM-PKUNIT; SDTM-PKUWG; SDTM-PKUWKG; SDTM-PODCI1TC; SDTM-PODCI1TN; SDTM-PODCI2TC; SDTM-PODCI2TN; SDTM-PODCI3TC; SDTM-PODCI3TN; SDTM-PORTOT; SDTM-POSITION; SDTM-PQL01TC; SDTM-PQL01TN; SDTM-PQL02TC; SDTM-PQL02TN; SDTM-PQL03TC; SDTM-PQL03TN; SDTM-PQL04TC; SDTM-PQL04TN; SDTM-PQL05TC; SDTM-PQL05TN; SDTM-PQL06TC; SDTM-PQL06TN; SDTM-PQL07TC; SDTM-PQL07TN; SDTM-PQL08TC; SDTM-PQL08TN; SDTM-PQL09TC; SDTM-PQL09TN; SDTM-PQL10TC; SDTM-PQL10TN; SDTM-PQL11TC; SDTM-PQL11TN; SDTM-PQL12TC; SDTM-PQL12TN; SDTM-PQL13TC; SDTM-PQL13TN; SDTM-PQL14TC; SDTM-PQL14TN; SDTM-PQL15TC; SDTM-PQL15TN; SDTM-PQL16TC; SDTM-PQL16TN; SDTM-PQL17TC; SDTM-PQL17TN; SDTM-PQL18TC; SDTM-PQL18TN; SDTM-PR01TC; SDTM-PR01TN; SDTM-PRITBCON; SDTM-PROCEDUR; SDTM-PROS01TC; SDTM-PROS01TN; SDTM-PROTMLST; SDTM-PRURGNCY; SDTM-PSECD1TC; SDTM-PSECD1TN; SDTM-PSFATS; SDTM-PSFATSCD; SDTM-PT01TC; SDTM-PT01TN; SDTM-PTAP1TC; SDTM-PTAP1TN; SDTM-PTCAT; SDTM-PTTEST; SDTM-PTTESTCD; SDTM-PUL01TC; SDTM-PUL01TN; SDTM-PUL02TC; SDTM-PUL02TN; SDTM-QIDSC1TC; SDTM-QIDSC1TN; SDTM-QIDSR1TC; SDTM-QIDSR1TN; SDTM-QLES1TC; SDTM-QLES1TN; SDTM-QLES2TC; SDTM-QLES2TN; SDTM-QRSMTHOD; SDTM-QSCAT; SDTM-QSUB01TC; SDTM-QSUB01TN; SDTM-R3601TC; SDTM-R3601TN; SDTM-RACEC; SDTM-RASS01TC; SDTM-RASS01TN; SDTM-RCVD01TC; SDTM-RCVD01TN; SDTM-RDQ01TC; SDTM-RDQ01TN; SDTM-REASTINT; SDTM-REASTRT; SDTM-RELSUB; SDTM-RELTYPE; SDTM-RESTYPRS; SDTM-RETEST; SDTM-RETESTCD; SDTM-RISEF1TC; SDTM-RISEF1TN; SDTM-RISKSOC; SDTM-ROCK01TC; SDTM-ROCK01TN; SDTM-ROUTE; SDTM-RPQ01TC; SDTM-RPQ01TN; SDTM-RPTEST; SDTM-RPTESTCD; SDTM-RSKASMT; SDTM-RSLSCLRS; SDTM-RSSS01TC; SDTM-RSSS01TN; SDTM-RUTG0101OR; SDTM-RUTG0101STR; SDTM-RUTG01TC; SDTM-RUTG01TN; SDTM-SAS01TC; SDTM-SAS01TN; SDTM-SCTEST; SDTM-SCTESTCD; SDTM-SDMT01TC; SDTM-SDMT01TN; SDTM-SDS01TC; SDTM-SDS01TN; SDTM-SDTHSDTP; SDTM-SDTMDVRS; SDTM-SDTMIGRS; SDTM-SDTMVRS; SDTM-SES01TC; SDTM-SES01TN; SDTM-SETTING; SDTM-SEVRS; SDTM-SEX; SDTM-SEXABRTH; SDTM-SEXORIRS; SDTM-SEXPOP; SDTM-SF101TC; SDTM-SF101TN; SDTM-SF102TC; SDTM-SF102TN; SDTM-SF121TC; SDTM-SF121TN; SDTM-SF122TC; SDTM-SF122TN; SDTM-SF123TC; SDTM-SF123TN; SDTM-SF124TC; SDTM-SF124TN; SDTM-SF361TC; SDTM-SF361TN; SDTM-SF362TC; SDTM-SF362TN; SDTM-SF363TC; SDTM-SF363TN; SDTM-SF364TC; SDTM-SF364TN; SDTM-SF6D1TC; SDTM-SF6D1TN; SDTM-SF6D2TC; SDTM-SF6D2TN; SDTM-SF81TC; SDTM-SF81TN; SDTM-SF82TC; SDTM-SF82TN; SDTM-SFMP2TC; SDTM-SFMP2TN; SDTM-SGRQ01TC; SDTM-SGRQ01TN; SDTM-SGRQ02TC; SDTM-SGRQ02TN; SDTM-SGRQC1TC; SDTM-SGRQC1TN; SDTM-SIQ01TC; SDTM-SIQ01TN; SDTM-SIQ02TC; SDTM-SIQ02TN; SDTM-SIQR01TC; SDTM-SIQR01TN; SDTM-SIXMW1TC; SDTM-SIXMW1TN; SDTM-SIZE; SDTM-SKINCLAS; SDTM-SKINTYP; SDTM-SMDDS1TC; SDTM-SMDDS1TN; SDTM-SOAPR1TC; SDTM-SOAPR1TN; SDTM-SOFA0101OR; SDTM-SOFA0101STR; SDTM-SOFA0102OR; SDTM-SOFA0102STR; SDTM-SOFA0103OR; SDTM-SOFA0103STR; SDTM-SOFA0104OR; SDTM-SOFA0104STR; SDTM-SOFA0105OR; SDTM-SOFA0105STR; SDTM-SOFA0106OR; SDTM-SOFA0106STR; SDTM-SOFA01TC; SDTM-SOFA01TN; SDTM-SOWSA1TC; SDTM-SOWSA1TN; SDTM-SPECCOND; SDTM-SPECPT; SDTM-SPECTYPE; SDTM-SPPB1TC; SDTM-SPPB1TN; SDTM-SRTEST; SDTM-SRTESTCD; SDTM-SSS0101OR; SDTM-SSS0101STR; SDTM-SSS01TC; SDTM-SSS01TN; SDTM-SSTATRS; SDTM-SSTEST; SDTM-SSTESTCD; SDTM-STCARCRS; SDTM-STCG01TC; SDTM-STCG01TN; SDTM-STCTIMRS; SDTM-STENRF; SDTM-STYPE; SDTM-SWLS01TC; SDTM-SWLS01TN; SDTM-SYMTYPGF; SDTM-SZFATS; SDTM-SZFATSCD; SDTM-T25FW1TC; SDTM-T25FW1TN; SDTM-TANN0101OR; SDTM-TANN0101STR; SDTM-TANN0102OR; SDTM-TANN0102STR; SDTM-TANN01TC; SDTM-TANN01TN; SDTM-TANN0201OR; SDTM-TANN0201STR; SDTM-TANN0202OR; SDTM-TANN0202STR; SDTM-TANN02TC; SDTM-TANN02TN; SDTM-TBFATS; SDTM-TBFATSCD; SDTM-TBLIND; SDTM-TCNTRL; SDTM-TDI01TC; SDTM-TDI01TN; SDTM-TENMW1TC; SDTM-TENMW1TN; SDTM-TESTCOND; SDTM-TIFATS; SDTM-TIFATSCD; SDTM-TIMG01TC; SDTM-TIMG01TN; SDTM-TIMIFLRS; SDTM-TINDTP; SDTM-TMT01TC; SDTM-TMT01TN; SDTM-TNCOMPLT; SDTM-TOCAT; SDTM-TOPARM; SDTM-TOPARMCD; SDTM-TPACN; SDTM-TPCATRS; SDTM-TPHASE; SDTM-TRPROPRS; SDTM-TRTEST; SDTM-TRTESTCD; SDTM-TRTINTNT; SDTM-TRTSET; SDTM-TSCC01TC; SDTM-TSCC01TN; SDTM-TSCYC1TC; SDTM-TSCYC1TN; SDTM-TSPARM; SDTM-TSPARMCD; SDTM-TSQM01TC; SDTM-TSQM01TN; SDTM-TSTMTHSN; SDTM-TSTOPOBJ; SDTM-TTYPE; SDTM-TUG01TC; SDTM-TUG01TN; SDTM-TUIDRS; SDTM-TUTEST; SDTM-TUTESTCD; SDTM-TWOFFMTH; SDTM-UHDR1TC; SDTM-UHDR1TN; SDTM-UNIT; SDTM-UPD1TC; SDTM-UPD1TN; SDTM-UPD2TC; SDTM-UPD2TN; SDTM-UPS01TC; SDTM-UPS01TN; SDTM-URNSTS; SDTM-URNSTSCD; SDTM-VALG01TC; SDTM-VALG01TN; SDTM-VCNEVD; SDTM-VFQ1TC; SDTM-VFQ1TN; SDTM-VFQ2TC; SDTM-VFQ2TN; SDTM-VHI01TC; SDTM-VHI01TN; SDTM-VLERS1TC; SDTM-VLERS1TN; SDTM-VNFATS; SDTM-VNFATSCD; SDTM-VSRESU; SDTM-VSTEST; SDTM-VSTESTCD; SDTM-WD1TC; SDTM-WD1TN; SDTM-WD2TC; SDTM-WD2TN; SDTM-WD3TC; SDTM-WD3TN; SDTM-WD4TC; SDTM-WD4TN; SDTM-WD5TC; SDTM-WD5TN; SDTM-WD6TC; SDTM-WD6TN; SDTM-WD7TC; SDTM-WD7TN; SDTM-WHEG01TC; SDTM-WHEG01TN; SDTM-WHIVS1TC; SDTM-WHIVS1TN; SDTM-WHIVS2TC; SDTM-WHIVS2TN; SDTM-WPAI01TC; SDTM-WPAI01TN; SDTM-WPAI02TC; SDTM-WPAI02TN; SEND-ACPARM; SEND-ACPARMCD; SEND-AGESMETH; SEND-BACAT; SEND-BGTEST; SEND-BGTESTCD; SEND-BIRRMRS; SEND-BODSYS; SEND-BWTEST; SEND-BWTESTCD; SEND-CAGTCAT; SEND-CHAGNAMR; SEND-CHRNCTY; SEND-CLCAT; SEND-COUNTRY; SEND-CSTATE; SEND-DDTEST; SEND-DDTESTCD; SEND-DESIGN; SEND-DPTEST; SEND-DPTESTCD; SEND-DSDECOD; SEND-DSTRBN; SEND-EGCATSND; SEND-EGFINDRS; SEND-EORNTI; SEND-FMTEST; SEND-FMTESTCD; SEND-FWTEST; SEND-FWTESTCD; SEND-FXFINDRS; SEND-FXRESCAT; SEND-FXTEST; SEND-FXTESTCD; SEND-GENUSSPC; SEND-GLPTYP; SEND-GTTEST; SEND-GTTESTCD; SEND-GVCAT; SEND-GVMETHOD; SEND-GVSCAT; SEND-GVTEST; SEND-GVTESTCD; SEND-HOUSEGRP; SEND-ICFINDRS; SEND-ICRESCAT; SEND-ICTEST; SEND-ICTESTCD; SEND-IRORSEQR; SEND-LVLDSCRS; SEND-MATEST; SEND-MATESTCD; SEND-MICAT; SEND-MIFINDRS; SEND-MIRCP; SEND-MIRESCAT; SEND-MIRESMOD; SEND-MISXMAT; SEND-MITEST; SEND-MITESTCD; SEND-MTHTRM; SEND-NCDPHASE; SEND-NCDSEX; SEND-NEOPLASM; SEND-NEOSTAT; SEND-NONNEO; SEND-NORMRS; SEND-NULLFLAV; SEND-OMTEST; SEND-OMTESTCD; SEND-PCSTRESC; SEND-PKCAT; SEND-PPTMDARS; SEND-PRGOUTRS; SEND-PRGSTARS; SEND-PYFINDRS; SEND-PYRESCAT; SEND-PYTEST; SEND-PYTESTCD; SEND-RNAIOTYP; SEND-RNASRC; SEND-RNTIMRS; SEND-ROETYPRS; SEND-RSTMODRS; SEND-SBCCDSND; SEND-SBCSND; SEND-SCVTST; SEND-SCVTSTCD; SEND-SDOMAIN; SEND-SEGLEAD; SEND-SEGMETHD; SEND-SEGSEV; SEND-SEGTST; SEND-SEGTSTCD; SEND-SEPOCH; SEND-SEV; SEND-SEXMAT; SEND-SLBCAT; SEND-SMBTST; SEND-SMBTSTCD; SEND-SMIMETHD; SEND-SNDIGVER; SEND-SNVCAT; SEND-SNVMETHD; SEND-SNVSCAT; SEND-SNVTST; SEND-SNVTSTCD; SEND-SOECAT; SEND-SOETST; SEND-SOETSTCD; SEND-SPEC; SEND-SPECIES; SEND-SPOSIT; SEND-SRETST; SEND-SRETSTCD; SEND-SSKCAT; SEND-SSKTST; SEND-SSKTSTCD; SEND-SSPMETHD; SEND-SSTYP; SEND-STCAT; SEND-STCNTRL; SEND-STRAIN; SEND-STRPSTAT; SEND-STSPRM; SEND-STSPRMCD; SEND-SVSTST; SEND-SVSTSTCD; SEND-TFTEST; SEND-TFTESTCD; SEND-TKDESCRS; SEND-TRTVATT; SEND-TSACTVYR; SEND-WATER; SEND-WTRDLVRY